* Freq(Hz)	SPL(dB)
20.000000	1.154
20.299999	1.161
20.600000	1.170
20.900000	1.180
21.200001	1.191
21.400000	1.199
21.799999	1.214
22.000000	1.222
22.400000	1.239
22.700001	1.251
23.000000	1.264
23.299999	1.276
23.600000	1.289
24.000000	1.306
24.299999	1.318
24.700001	1.335
25.000000	1.347
25.400000	1.363
25.799999	1.379
26.200001	1.395
26.500000	1.406
26.900000	1.421
27.200001	1.432
27.600000	1.447
28.000000	1.461
28.500000	1.478
29.000000	1.494
29.500000	1.510
30.000000	1.526
30.400000	1.538
30.700001	1.547
31.100000	1.559
31.500000	1.570
32.000000	1.584
32.500000	1.597
33.000000	1.610
33.500000	1.623
34.000000	1.635
34.500000	1.647
35.000000	1.658
35.500000	1.669
36.000000	1.680
36.500000	1.691
37.000000	1.701
37.500000	1.710
38.200001	1.724
38.700001	1.733
39.500000	1.747
40.000000	1.755
40.599998	1.765
41.200001	1.774
41.799999	1.783
42.500000	1.793
43.099998	1.801
43.700001	1.809
44.400002	1.818
45.000000	1.825
45.500000	1.831
46.200001	1.838
46.799999	1.845
47.500000	1.852
48.200001	1.859
48.700001	1.863
49.400002	1.869
50.000000	1.875
50.799999	1.881
51.500000	1.886
52.200001	1.891
53.000000	1.897
53.799999	1.902
54.500000	1.906
55.200001	1.910
56.000000	1.915
57.000000	1.920
58.000000	1.924
59.000000	1.928
60.000000	1.932
60.799999	1.935
61.500000	1.937
62.200001	1.939
63.000000	1.941
64.000000	1.944
65.000000	1.946
66.000000	1.947
67.000000	1.949
68.000000	1.950
69.000000	1.951
70.000000	1.951
71.000000	1.952
72.000000	1.952
73.000000	1.952
74.000000	1.951
75.000000	1.951
76.199997	1.950
77.500000	1.948
78.800003	1.946
80.000000	1.944
81.199997	1.942
82.500000	1.939
83.800003	1.936
85.000000	1.933
86.199997	1.930
87.500000	1.926
88.500000	1.923
90.000000	1.918
91.199997	1.913
92.500000	1.908
93.800003	1.903
95.000000	1.898
96.199997	1.893
97.500000	1.887
98.800003	1.881
100.000000	1.875
101.500000	1.868
103.000000	1.860
104.400002	1.853
106.000000	1.844
107.500000	1.835
109.000000	1.826
110.599998	1.816
112.000000	1.807
113.800003	1.795
115.000000	1.786
117.199997	1.771
118.000000	1.765
120.599998	1.746
122.000000	1.735
124.099998	1.719
125.000000	1.712
126.500000	1.700
128.000000	1.688
131.500000	1.659
132.000000	1.654
134.000000	1.637
136.000000	1.620
138.000000	1.603
140.000000	1.586
143.000000	1.560
145.000000	1.543
147.500000	1.522
150.000000	1.502
152.500000	1.482
155.000000	1.462
157.500000	1.444
160.000000	1.426
162.500000	1.409
165.000000	1.394
167.500000	1.380
170.000000	1.367
172.500000	1.355
175.000000	1.344
177.500000	1.335
180.000000	1.327
182.500000	1.321
185.000000	1.316
187.500000	1.312
190.000000	1.309
192.500000	1.307
195.000000	1.306
197.500000	1.306
200.000000	1.307
203.000000	1.309
206.000000	1.312
209.000000	1.316
212.000000	1.320
214.000000	1.323
218.000000	1.330
220.000000	1.334
224.000000	1.341
227.000000	1.347
230.000000	1.353
233.000000	1.359
236.000000	1.365
240.000000	1.373
243.000000	1.379
247.000000	1.387
250.000000	1.392
254.000000	1.400
258.000000	1.407
262.000000	1.414
265.000000	1.419
269.000000	1.425
272.000000	1.429
276.000000	1.435
280.000000	1.441
285.000000	1.447
290.000000	1.453
295.000000	1.459
300.000000	1.464
304.000000	1.467
307.000000	1.470
311.000000	1.472
315.000000	1.475
320.000000	1.477
325.000000	1.478
330.000000	1.479
335.000000	1.478
340.000000	1.477
345.000000	1.475
350.000000	1.472
355.000000	1.467
360.000000	1.462
365.000000	1.456
370.000000	1.449
375.000000	1.441
382.000000	1.428
387.000000	1.418
395.000000	1.401
400.000000	1.389
406.000000	1.373
412.000000	1.357
418.000000	1.341
425.000000	1.320
431.000000	1.302
437.000000	1.284
444.000000	1.262
450.000000	1.242
455.000000	1.226
462.000000	1.203
468.000000	1.183
475.000000	1.159
482.000000	1.135
487.000000	1.118
494.000000	1.094
500.000000	1.073
508.000000	1.045
515.000000	1.020
522.000000	0.996
530.000000	0.969
538.000000	0.942
545.000000	0.920
552.000000	0.898
560.000000	0.876
570.000000	0.851
580.000000	0.832
590.000000	0.818
600.000000	0.811
608.000000	0.810
615.000000	0.813
622.000000	0.819
630.000000	0.829
640.000000	0.847
650.000000	0.868
660.000000	0.893
670.000000	0.919
680.000000	0.945
690.000000	0.971
700.000000	0.995
710.000000	1.017
720.000000	1.036
730.000000	1.052
740.000000	1.064
750.000000	1.072
762.000000	1.077
775.000000	1.077
788.000000	1.070
800.000000	1.058
812.000000	1.041
825.000000	1.018
838.000000	0.989
850.000000	0.959
862.000000	0.925
875.000000	0.885
885.000000	0.851
900.000000	0.798
912.000000	0.752
925.000000	0.701
938.000000	0.649
950.000000	0.600
962.000000	0.550
975.000000	0.497
988.000000	0.444
1000.000000	0.397
1015.000000	0.340
1030.000000	0.287
1044.000000	0.242
1060.000000	0.196
1075.000000	0.160
1090.000000	0.129
1106.000000	0.104
1120.000000	0.088
1138.000000	0.074
1150.000000	0.069
1172.000000	0.068
1180.000000	0.070
1206.000000	0.081
1220.000000	0.090
1241.000000	0.106
1250.000000	0.113
1265.000000	0.126
1280.000000	0.139
1315.000000	0.169
1320.000000	0.173
1340.000000	0.188
1360.000000	0.203
1380.000000	0.217
1400.000000	0.230
1430.000000	0.247
1450.000000	0.258
1475.000000	0.270
1500.000000	0.282
1525.000000	0.293
1550.000000	0.303
1575.000000	0.313
1600.000000	0.322
1625.000000	0.332
1650.000000	0.341
1675.000000	0.351
1700.000000	0.360
1725.000000	0.370
1750.000000	0.380
1775.000000	0.390
1800.000000	0.400
1825.000000	0.411
1850.000000	0.422
1875.000000	0.433
1900.000000	0.444
1925.000000	0.455
1950.000000	0.466
1975.000000	0.478
2000.000000	0.490
2030.000000	0.503
2060.000000	0.517
2090.000000	0.531
2120.000000	0.544
2140.000000	0.552
2180.000000	0.568
2200.000000	0.576
2240.000000	0.590
2270.000000	0.599
2300.000000	0.607
2330.000000	0.614
2360.000000	0.619
2400.000000	0.624
2430.000000	0.625
2470.000000	0.624
2500.000000	0.622
2540.000000	0.615
2580.000000	0.605
2620.000000	0.592
2650.000000	0.580
2690.000000	0.561
2720.000000	0.545
2760.000000	0.520
2800.000000	0.493
2850.000000	0.456
2900.000000	0.415
2950.000000	0.370
3000.000000	0.323
3040.000000	0.283
3070.000000	0.253
3110.000000	0.211
3150.000000	0.169
3200.000000	0.115
3250.000000	0.061
3300.000000	0.006
3350.000000	-0.048
3400.000000	-0.101
3450.000000	-0.152
3500.000000	-0.202
3550.000000	-0.250
3600.000000	-0.294
3650.000000	-0.335
3700.000000	-0.373
3750.000000	-0.406
3820.000000	-0.446
3870.000000	-0.469
3950.000000	-0.497
4000.000000	-0.509
4060.000000	-0.518
4120.000000	-0.522
4180.000000	-0.522
4250.000000	-0.516
4310.000000	-0.508
4370.000000	-0.498
4440.000000	-0.483
4500.000000	-0.469
4550.000000	-0.457
4620.000000	-0.439
4680.000000	-0.424
4750.000000	-0.406
4820.000000	-0.389
4870.000000	-0.377
4940.000000	-0.361
5000.000000	-0.348
5080.000000	-0.331
5150.000000	-0.318
5220.000000	-0.305
5300.000000	-0.292
5380.000000	-0.279
5450.000000	-0.269
5520.000000	-0.258
5600.000000	-0.247
5700.000000	-0.233
5800.000000	-0.220
5900.000000	-0.205
6000.000000	-0.191
6080.000000	-0.178
6150.000000	-0.166
6220.000000	-0.153
6300.000000	-0.138
6400.000000	-0.116
6500.000000	-0.092
6600.000000	-0.066
6700.000000	-0.036
6800.000000	-0.004
6900.000000	0.030
7000.000000	0.066
7100.000000	0.103
7200.000000	0.140
7300.000000	0.174
7400.000000	0.205
7500.000000	0.230
7620.000000	0.250
7750.000000	0.256
7880.000000	0.240
8000.000000	0.206
8120.000000	0.151
8250.000000	0.068
8380.000000	-0.040
8500.000000	-0.159
8620.000000	-0.295
8750.000000	-0.460
8850.000000	-0.597
9000.000000	-0.818
9120.000000	-1.006
9250.000000	-1.220
9380.000000	-1.443
9500.000000	-1.658
9620.000000	-1.881
9750.000000	-2.133
9880.000000	-2.394
10000.000000	-2.645
10150.000000	-2.972
10300.000000	-3.313
10440.000000	-3.643
10600.000000	-4.029
10750.000000	-4.394
10900.000000	-4.751
11060.000000	-5.109
11200.000000	-5.385
11380.000000	-5.657
11500.000000	-5.768
11720.000000	-5.793
11800.000000	-5.741
12060.000000	-5.367
12200.000000	-5.060
12410.000000	-4.514
12500.000000	-4.261
12650.000000	-3.829
12800.000000	-3.396
13150.000000	-2.427
13200.000000	-2.296
13400.000000	-1.793
13600.000000	-1.328
13800.000000	-0.899
14000.000000	-0.506
14300.000000	0.023
14500.000000	0.337
14750.000000	0.693
15000.000000	1.010
15250.000000	1.293
15500.000000	1.547
15750.000000	1.773
16000.000000	1.976
16250.000000	2.157
16500.000000	2.319
16750.000000	2.462
17000.000000	2.589
17250.000000	2.701
17500.000000	2.796
17750.000000	2.877
18000.000000	2.943
18250.000000	2.994
18500.000000	3.031
18750.000000	3.055
19000.000000	3.069
19250.000000	3.076
19500.000000	3.078
19750.000000	3.079
20000.000000	3.079
